Folder: technical-test-ds-argos/code/data

Note: README.md
# Technical test for Data Scientist - Argos

File: concrete_7_days_scaled.csv
,cement_kg,scm1_kg,scm2_kg,water_kg,additive_kg,aggregate_coarse_kg,aggregate_fine_kg,age_days,compressive_strength_mpa
0,1.55425,-0.930189,-0.344479,2.3929,-0.561856,-0.639401,-2.13735,0.0,0.864233
1,1.09875,-0.454804,-0.344479,2.3929,-0.561856,-0.639401,-2.13735,0.0,0.621388
2,-0.723288,1.44673,-0.344479,2.3929,-0.561856,-0.639401,-2.13735,0.0,0.0142773
3,0.643237,0.0205801,-0.344479,2.3929,-0.561856,-0.639401,-2.13735,0.0,0.466264
4,-1.66211,1.16551,-0.344479,0.466279,-0.561856,0.779727,0.476284,0.0,-0.789065
5,-1.09633,0.394883,-0.344479,0.466279,-0.561856,-0.0668136,0.704624,0.0,-0.785695
6,0.187729,0.495965,-0.344479,2.3929,-0.561856,-0.639401,-2.13735,0.0,0.290871
7,0.585699,0.963343,-0.344479,-0.705748,0.950737,-0.712208,-0.139989,0.0,1.38733
8,0.00360754,1.69393,-0.344479,-0.416755,0.726094,0.778493,-1.91883,0.0,1.15284
9,1.07477,0.133672,-0.344479,-1.59413,1.90921,-1.62539,1.46085,0.0,1.59381
10,1.07477,0.133672,-0.344479,-1.70652,2.22371,-0.59004,0.436999,0.0,1.42862
11,0.595289,0.00857042,-0.344479,-3.03375,2.94257,-1.62539,2.756,0.0,1.35267
12,1.55425,0.258773,-0.344479,-0.117058,0.771023,-1.62539,0.164464,0.0,2.03431
13,1.49672,0.24276,-0.344479,-2.43435,4.26047,-1.62539,0.888769,0.0,1.98589
15,0.725708,0.0415971,-0.344479,-1.35866,1.25026,-1.62539,1.93471,0.0,0.609332
16,2.09415,-0.930189,-0.344479,-2.22028,3.66142,-1.62539,1.54187,0.0,1.43527
18,0.0563506,1.19653,-0.344479,-1.4764,1.57974,-1.62539,1.3786,0.0,0.505852
19,0.852292,0.0175777,-0.344479,-1.92059,1.14543,-0.456765,1.03118,0.0,1.93083
20,0.476377,0.961341,-0.344479,-0.984037,1.17538,-0.48268,-0.151038,0.0,2.05472
21,0.10334,1.9001,-0.344479,0.0274382,0.980689,-0.50736,-1.32834,0.0,1.63511
22,0.638442,0.583035,-0.344479,-1.57273,1.81935,1.85703,-2.00231,0.0,1.44903
24,-0.255313,1.08044,-0.344479,-2.06508,1.11547,0.256501,0.436999,0.0,0.822461
26,1.20903,0.841244,-0.344479,0.145176,1.1005,-1.22063,-0.739076,0.0,2.06849
27,0.738175,0.961341,-0.344479,-2.00086,2.7329,-0.48268,-0.151038,0.0,2.27497
28,0.476377,0.961341,-0.344479,-0.984037,1.17538,-0.48268,-0.151038,0.0,-0.21708
29,0.239513,0.961341,-0.344479,-0.448865,0.86088,-0.48268,-0.151038,0.0,0.623097
30,1.27615,-0.689995,1.80803,-1.13924,1.17688,-0.207492,-0.688743,0.0,1.787
31,1.27615,-0.689995,1.80803,-1.13924,1.18137,-0.207492,-0.688743,0.0,0.823885
32,1.27615,-0.689995,1.80803,-1.13924,1.18137,-0.207492,-0.688743,0.0,0.912175
33,0.710365,-0.730027,2.21673,-1.40682,1.58273,-0.565359,0.944013,0.0,0.742716
34,0.710365,-0.730027,2.21673,-1.40682,1.52432,-0.565359,0.944013,0.0,1.36644
35,0.710365,-0.730027,2.21673,-1.40682,1.17688,-0.565359,0.944013,0.0,1.07499
36,1.70769,-0.669978,3.00689,1.42959,0.0267075,-1.25641,-0.848335,0.0,0.512091
37,1.70769,-0.669978,3.00689,0.947934,0.0267075,-1.99683,-0.848335,0.0,0.81724
38,1.06518,-0.710011,3.25212,-0.282962,0.708123,-1.99683,-0.222241,0.0,0.891832
39,1.06518,-0.710011,3.25212,-0.818134,0.774018,-1.99683,-0.222241,0.0,0.979986
40,-1.06372,-0.8201,3.49734,1.21552,-0.304266,-0.515998,0.403853,0.0,-0.755973
41,-0.277369,-0.780067,3.49734,-0.229444,0.255843,-1.75002,0.403853,0.0,-0.132113
42,0.441855,-0.740035,3.49734,-1.56737,1.07204,-0.515998,0.403853,0.0,0.668056
43,0.441855,-0.740035,3.49734,-1.56737,1.07204,-0.515998,0.403853,0.0,0.864707
44,1.6022,-0.930189,-0.344479,0.466279,-0.561856,-0.587572,-0.686287,0.0,0.5865
45,-0.555469,-0.930189,-0.344479,0.466279,-0.561856,-1.16016,2.17165,0.0,-1.08972
46,-0.229421,-0.930189,-0.344479,0.466279,-0.561856,-0.871397,1.56151,0.0,-0.788543
47,0.192524,-0.930189,-0.344479,0.466279,-0.561856,-0.649273,0.91455,0.0,-0.182144
48,0.767903,-0.930189,-0.344479,0.466279,-0.561856,-0.533275,0.214797,0.0,0.116475
49,-1.47799,1.45374,-0.344479,0.129121,-0.561856,0.700749,-0.41498,0.0,-1.13135
50,-0.70315,2.66672,-0.344479,0.129121,-0.561856,-0.520935,-1.27432,0.0,-0.0432534
51,-0.716575,0.659097,-0.344479,0.129121,-0.561856,0.700749,-0.41498,0.0,-0.713212
52,-0.550674,0.77419,-0.344479,0.129121,-0.561856,0.527986,-0.537743,0.0,-0.606837
53,-0.384773,0.890284,-0.344479,0.129121,-0.561856,0.352755,-0.660507,0.0,-0.432725
54,0.667211,-0.930189,-0.344479,0.129121,-0.561856,0.789599,-0.353598,0.0,-0.13667
55,-0.980291,2.23337,-0.344479,0.129121,-0.561856,-0.0840899,-0.967416,0.0,-0.291272
56,-0.164211,-0.930189,-0.344479,0.129121,-0.561856,1.32763,0.0146927,0.0,-0.771549
57,-1.04934,0.42791,-0.344479,0.129121,-0.561856,1.14006,-0.108071,0.0,-0.970249
58,0.806261,-0.930189,-0.344479,0.129121,-0.561856,0.700749,-0.41498,0.0,-0.0414971
59,-0.883435,0.543003,-0.344479,0.129121,-0.561856,0.878449,-0.292216,0.0,-0.892354
60,-1.69951,1.10646,-0.344479,0.129121,-0.561856,1.14006,-0.108071,0.0,-1.27665
61,0.251979,-0.930189,-0.344479,0.129121,-0.561856,1.05368,-0.169453,0.0,-0.335369
62,-1.14523,1.97416,-0.344479,0.129121,-0.561856,0.177523,-0.783271,0.0,-0.609305
63,-0.217913,1.00638,-0.344479,0.129121,-0.561856,0.177523,-0.783271,0.0,-0.288566
64,-1.25647,1.80002,-0.344479,0.129121,-0.561856,0.352755,-0.660507,0.0,-0.941673
65,-0.81439,2.49358,-0.344479,0.129121,-0.561856,-0.345703,-1.15156,0.0,-0.284579
66,0.656663,-0.930189,-0.344479,0.129121,-0.561856,1.49053,0.198838,0.0,-0.792388
67,-1.21524,0.311816,-0.344479,0.129121,-0.561856,1.22891,-0.0466891,0.0,-1.243
68,-0.717534,-0.930189,-0.344479,0.129121,-0.561856,1.66576,0.26022,0.0,-1.08189
69,-0.579443,-0.930189,-0.344479,0.129121,-0.561856,1.57691,0.198838,0.0,-1.00286
70,0.0304586,1.17852,-0.344479,0.129121,-0.561856,-0.0840899,-0.967416,0.0,-0.111037
71,-1.36771,0.62607,-0.344479,0.129121,-0.561856,0.527986,-0.537743,0.0,-1.05474
72,0.250062,-0.930189,-0.344479,0.733865,-0.561856,-0.195152,0.158326,0.0,-0.349989
73,-0.737672,-0.930189,-0.344479,0.519797,-0.561856,-0.195152,1.43507,0.0,-1.10567
74,-1.0829,-0.930189,-0.344479,-0.175927,-0.561856,1.74227,0.944013,0.0,-1.25377
75,-0.843159,-0.930189,-0.344479,-0.12241,-0.561856,1.59418,0.796697,0.0,-1.0245
76,0.115806,-0.930189,-0.344479,0.0381416,-0.561856,0.977171,0.182879,0.0,-0.585903
77,-0.363676,-0.930189,-0.344479,-0.0153756,-0.561856,1.28568,0.489788,0.0,-0.815647
78,-0.123935,-0.930189,-0.344479,0.0381416,-0.561856,1.12525,0.330195,0.0,-0.721186
79,0.595289,-0.930189,-0.344479,0.145176,-0.561856,0.668665,-0.12403,0.0,0.000796509
80,0.83503,-0.930189,-0.344479,0.198693,-0.561856,0.508242,-0.283623,0.0,0.281805
81,-0.603417,-0.930189,-0.344479,-0.0688928,-0.561856,1.43376,0.637104,0.0,-0.916753
82,0.355548,-0.930189,-0.344479,0.145176,-0.561856,0.816748,0.0232861,0.0,-0.397457
83,-1.04934,2.12528,-0.344479,1.08173,-0.561856,-0.251917,-1.6954,0.0,-0.448295
84,-0.0731097,1.10646,-0.344479,1.08173,-0.561856,-0.227237,-1.68313,0.0,-0.0107856
85,-1.64581,1.19153,-0.344479,1.08173,-0.561856,-0.148259,-0.240656,0.0,-1.07791
86,-0.601499,0.739161,-0.344479,1.08173,-0.561856,-0.0766858,-0.908489,0.0,-0.461301
87,-1.34182,0.23075,-0.344479,0.466279,-0.561856,-0.456765,1.08887,0.0,-1.00917
88,-0.737672,0.641082,-0.344479,0.466279,-0.561856,-0.138387,-0.23329,0.0,-0.387916
89,-0.967824,0.483955,-0.344479,1.08173,-0.561856,-0.128515,-0.222241,0.0,-0.758686
90,-1.40128,1.57384,-0.344479,1.08173,-0.561856,-0.101366,-0.926904,0.0,-0.709272
91,-2.02269,0.60105,-0.344479,0.466279,-0.561856,-1.19471,2.13482,0.0,-1.26502
92,-1.72541,1.07143,-0.344479,0.466279,-0.561856,-0.696166,0.87281,0.0,-0.852766
93,-1.49525,1.43172,-0.344479,0.466279,-0.561856,-0.597444,0.160781,0.0,-0.630713
94,-0.239011,0.991365,-0.344479,0.466279,-0.561856,-0.639401,-0.61754,0.0,-0.173979
95,-1.23729,0.296804,-0.344479,1.08173,-0.561856,-0.303746,0.391577,0.0,-1.0508
96,-1.96227,0.695126,-0.344479,1.08173,-0.561856,-0.562891,0.993118,0.0,-1.26175
97,-1.0829,0.400888,-0.344479,0.466279,-0.561856,-0.227237,0.46769,0.0,-0.611678
98,-1.15962,1.95214,-0.344479,0.466279,-0.561856,-0.666549,-0.63841,0.0,-0.314626
99,-1.53361,0.0906368,-0.344479,0.466279,-0.561856,-1.18237,2.14832,0.0,-1.21694
100,-1.88843,0.801212,-0.344479,0.466279,-0.561856,-0.913354,1.51977,0.0,-1.09884
101,-1.82514,0.9103,-0.344479,1.08173,-0.561856,-0.316087,0.392804,0.0,-1.08061
102,-0.0280383,-0.930189,-0.344479,0.466279,-0.561856,0.347819,0.759868,0.0,-0.606314
103,0.173344,-0.930189,-0.344479,0.466279,-0.561856,0.508242,0.64938,0.0,-0.593024
104,0.345958,-0.930189,-0.344479,0.466279,-0.561856,0.890789,0.502064,0.0,-1.17308
105,-0.718493,-0.930189,-0.344479,0.145176,-0.561856,1.66822,0.256537,0.0,-0.963746
106,-0.162293,-0.930189,-0.344479,0.145176,-0.561856,1.31036,0.0110097,0.0,-0.491443
107,-0.152704,-0.930189,-0.344479,0.145176,-0.561856,0.693345,-0.418663,0.0,0.337817
108,-0.306138,-0.930189,-0.344479,0.145176,-0.561856,1.48312,0.0723915,0.0,-0.795236
109,1.794,-0.930189,-0.344479,0.894417,-0.561856,1.74227,-1.9041,0.0,0.493036
110,2.17758,-0.930189,-0.344479,-0.550548,-0.561856,1.74227,-1.9041,0.0,1.82877
111,0.355548,-0.930189,-0.344479,1.05497,-0.561856,-0.121111,0.0846679,0.0,-0.545556
112,0.691186,-0.930189,-0.344479,0.145176,-0.561856,-0.219833,-0.0626484,0.0,-0.19477
113,0.662417,-0.930189,-0.344479,0.145176,-0.561856,0.779727,-0.357281,0.0,-0.141132
114,0.662417,-0.930189,-0.344479,0.145176,-0.561856,1.5695,0.195155,0.0,-1.00409
115,0.250062,-0.930189,-0.344479,0.0916588,-0.561856,1.05121,-0.173136,0.0,-0.336698
116,-0.171883,-0.930189,-0.344479,0.0916588,-0.561856,1.05121,0.0110097,0.0,-0.774825
117,-0.162293,-0.930189,-0.344479,0.466279,-0.561856,1.24866,-0.0380957,0.0,-0.815647
118,0.173344,-0.930189,-0.344479,0.466279,-0.561856,-0.0717497,0.698486,0.0,-0.673718
119,0.345958,-0.930189,-0.344479,0.466279,-0.561856,0.779727,0.465235,0.0,-0.545556
120,-0.584238,-0.930189,-0.344479,0.0916588,-0.561856,1.5695,0.195155,0.0,-0.849349
121,0.662417,-0.930189,-0.344479,0.0916588,-0.561856,0.779727,-0.357281,0.0,-0.141132
122,-0.584238,-0.930189,-0.344479,0.145176,-0.561856,1.5695,0.195155,0.0,-1.00409
123,-0.0280383,-0.930189,-0.344479,0.466279,-0.561856,-0.170472,1.00539,0.0,-0.761534
124,2.03374,-0.930189,-0.344479,0.305728,-0.561856,1.74227,-1.9041,0.0,1.1272
125,2.00497,-0.930189,-0.344479,-1.99551,-0.561856,-1.08365,1.57011,0.0,1.684

File: concrete_28_days_scaled.csv
,cement_kg,scm1_kg,scm2_kg,water_kg,additive_kg,aggregate_coarse_kg,aggregate_fine_kg,age_days,compressive_strength_mpa
0,2.62615,-0.983607,-0.949284,-1.09077,-0.83454,1.00284,-1.21008,0.0,2.94256
4,2.00442,-0.983607,-0.949284,2.32774,-1.29873,-0.287435,-2.33284,0.0,0.17295
8,1.55008,-0.44213,-0.949284,2.32774,-1.29873,-0.287435,-2.33284,0.0,0.046212
12,2.10007,-0.983607,-0.949284,-1.9195,-1.29873,1.9586,0.487764,0.0,2.39826
16,1.52617,0.228161,-0.949284,-1.6398,2.15484,-0.239647,0.538426,0.0,1.70474
21,1.178,0.123286,-0.949284,-1.30313,0.947949,-1.242,2.20888,0.0,0.949285
26,0.929308,1.1709,-0.949284,-0.940561,0.855111,-0.135708,-0.117433,0.0,2.35133
32,1.66008,1.03411,-0.949284,0.152327,0.762273,-0.850139,-0.773293,0.0,1.9905
37,-0.302575,-0.983607,0.480506,0.768177,-0.450748,-0.107752,1.20195,0.0,-0.946858
41,-0.339305,-0.983607,0.839239,0.642832,-0.43905,0.876205,-0.0792321,0.0,-0.834713
45,-0.494737,0.134115,-0.57876,-0.0698766,-0.0249929,1.31108,0.287583,0.0,0.609565
49,-0.147717,-0.983607,0.497287,0.225877,-0.271942,0.00956801,1.32532,0.0,-0.512355
53,-0.322279,-0.983607,0.889277,-0.471293,-0.0509875,1.19877,0.192696,0.0,-0.205481
57,-0.797757,-0.468235,0.894568,-0.665527,0.221956,1.23462,0.222819,0.0,-0.372995
61,0.289502,-0.983607,0.496531,-0.596638,0.348216,-0.0109809,1.29835,0.0,0.217292
65,-0.178038,-0.983607,0.941583,-2.05935,0.927525,1.56196,0.49995,0.0,1.07222
69,-0.496841,-0.983607,1.68475,-1.47354,0.866252,1.14979,0.15203,0.0,0.625519
73,-0.445668,-0.983607,0.927221,-1.27257,0.804979,1.46519,0.418071,0.0,-0.444317
77,0.474011,0.578126,-0.949284,-1.97129,-0.203242,2.07807,-0.26531,0.0,3.06268
81,2.43485,-0.983607,-0.949284,-0.676404,-0.333215,-1.20736,1.24084,0.0,1.60151
85,2.2445,-0.983607,-0.949284,0.877466,-0.741702,2.01117,-2.06995,0.0,0.502581
89,0.655747,-0.782976,1.43924,0.307714,1.54211,0.130711,-1.79884,0.0,0.51572
93,-1.15205,0.338737,0.84967,0.0487354,-0.240377,-1.47019,1.58314,0.0,-0.516578
97,2.00442,-0.983607,-0.949284,-1.09077,0.465192,1.05063,-1.40177,0.0,1.48186
101,2.24355,-0.983607,-0.949284,-1.66052,0.372354,0.919214,-1.49761,0.0,2.25186
105,-0.938268,0.49719,0.995098,-0.393599,0.147686,0.600229,-0.243402,0.0,0.30316
109,-0.876478,0.0807654,1.46797,-0.555202,0.507897,0.610981,-0.243402,0.0,0.072301
113,-0.676855,-0.983607,0.570303,-0.667598,0.0901262,0.501068,1.88164,0.0,0.0352322
117,1.72703,-0.710019,0.24498,-1.09077,0.862538,0.130711,-0.717154,0.0,0.971338
121,1.16269,-0.755617,0.471738,-1.34975,0.856968,-0.215753,1.10392,0.0,0.676195
125,2.15746,-0.68722,0.910139,0.929262,-0.569023,-1.60161,-0.895154,0.0,1.44056
129,0.177495,-0.812615,1.18225,-0.210243,-0.284939,-1.36267,0.501456,0.0,0.475366
133,1.22009,-0.983607,-0.949284,0.463101,-1.29873,-0.18469,0.290596,0.0,0.194394
137,0.22532,-0.983607,-0.949284,0.463101,-1.29873,-0.512039,1.79264,0.0,-0.760529
141,-0.427016,0.694401,-0.949284,0.136788,-1.29873,1.18205,-0.274894,0.0,-0.748845
145,1.10913,-0.983607,-0.949284,0.136788,-1.29873,1.77462,0.272796,0.0,-0.970413
149,-0.261541,-0.983607,-0.949284,0.136788,-1.29873,1.94427,0.341257,0.0,-1.30478
153,-0.523623,2.61978,-0.949284,0.136788,-1.29873,0.250181,-1.02797,0.0,0.0724887
157,-0.123804,-0.983607,-0.949284,0.136788,-1.29873,1.85825,0.272796,0.0,-1.1558
161,0.703572,-0.983607,-0.949284,0.722079,-1.29873,0.142658,0.227611,0.0,-0.320441
165,-0.625969,-0.983607,-0.949284,-0.158447,-1.29873,2.01834,1.10392,0.0,-1.66759
169,0.330536,-0.983607,-0.949284,0.0487354,-1.29873,1.42099,0.419303,0.0,-0.673769
173,0.808788,-0.983607,-0.949284,0.152327,-1.29873,1.12231,0.0769965,0.0,-0.167004
177,-1.50308,0.867674,-0.949284,1.05875,-1.29873,-0.213363,1.15868,0.0,-1.0994
181,0.38123,1.33619,-0.949284,1.05875,-1.29873,0.111596,-1.82623,0.0,0.451107
185,-0.884225,0.338737,-0.949284,0.463101,-1.29873,-0.110619,1.26548,0.0,-0.848415
189,-1.42943,0.988509,-0.949284,0.463101,-1.29873,-0.552659,1.74608,0.0,-0.980033
193,0.426186,-0.983607,-0.949284,0.463101,-1.29873,0.668327,0.898532,0.0,-0.607139
197,0.292275,-0.983607,-0.949284,0.152327,-1.29873,1.60019,0.0633043,0.0,-0.787321
201,2.24355,-0.983607,-0.949284,0.877466,-1.29873,2.01834,-2.07269,0.0,0.499766
205,1.11487,-0.983607,-0.949284,0.152327,-1.29873,1.08647,-0.347463,0.0,0.0460244
209,-0.262497,-0.983607,-0.949284,0.100531,-1.29873,1.93471,0.337149,0.0,-1.30722
213,-0.128587,-0.983607,-0.949284,0.100531,-1.29873,1.85108,0.268688,0.0,-1.16083
218,0.426186,-0.983607,-0.949284,0.463101,-1.29873,0.166552,1.17238,0.0,-0.600569
222,1.25835,-0.983607,-0.949284,0.100531,-1.29873,1.00284,-0.415925,0.0,0.159577
226,-1.06596,0.657923,0.743849,1.91338,0.55803,-0.394958,-1.45654,0.0,-1.37808
230,-1.16161,-0.983607,1.69624,-1.29795,2.04344,-0.156018,1.09022,0.0,-1.45175
234,-1.07553,1.74088,-0.949284,0.877466,-0.184674,0.548856,-1.10054,0.0,-0.673299
238,-1.18074,0.920112,1.01596,-0.469221,0.743705,-0.872839,0.28238,0.0,0.534958
242,0.139235,0.48693,0.562442,-0.572812,0.372354,-1.56577,0.556225,0.0,1.09381
246,-1.00857,1.1595,1.25784,1.03285,0.743705,-1.51798,-0.744539,0.0,-0.266011
250,0.579227,0.908712,-0.949284,-0.469221,0.372354,-0.884786,0.350842,0.0,1.66626
254,-0.970311,-0.983607,2.07417,-0.106652,1.11506,-1.27904,1.11761,0.0,-1.47427
258,0.215755,0.395734,-0.949284,-0.313834,0.00100178,-0.574163,0.88484,0.0,0.366506
262,-0.951181,1.98027,-0.949284,-0.00306021,1.11506,-1.15957,0.857455,0.0,0.0793394
266,-1.01814,1.1481,-0.949284,-0.36563,0.743705,0.405492,0.337149,0.0,-0.271173
270,-1.0564,1.1025,-0.949284,0.514896,0.372354,1.08647,-0.922538,0.0,-1.25655
274,0.454881,0.669322,-0.949284,-0.262038,0.186678,-1.06399,0.816378,0.0,0.519943
278,-1.11379,1.70668,-0.949284,-0.36563,1.11506,-1.30293,1.76114,0.0,-0.258034
282,0.579227,-0.983607,1.1369,0.82567,0.743705,-1.85249,0.378226,0.0,0.267499
286,-1.09466,-0.983607,1.84741,-0.831791,1.67209,1.40904,-1.18269,0.0,-1.58501
290,-0.0520663,0.167744,0.229862,-0.624608,0.55803,-0.239647,-0.0188492,0.0,0.886409
294,-1.15205,-0.983607,1.07643,-0.106652,0.743705,0.274075,0.652071,0.0,-1.60284
298,-1.0564,-0.983607,1.21248,0.514896,0.372354,1.08647,-0.922538,0.0,-1.65304
302,0.464446,0.669322,0.758966,-0.210243,0.186678,-1.0401,-1.01838,0.0,0.645226
306,-1.12335,-0.983607,1.80206,-0.106652,1.48641,-1.39851,1.63791,0.0,-1.44471
310,-1.0564,1.1139,1.21248,0.566692,0.372354,-0.90868,-0.895154,0.0,-0.528309
314,0.454881,-0.983607,-0.949284,-0.262038,0.186678,0.524962,0.788994,0.0,-0.792952
318,-0.989441,1.37609,1.65088,1.7062,0.55803,-1.60161,-1.73038,0.0,0.210723
322,-1.03727,1.45589,1.34854,0.877466,0.372354,-1.63745,-0.826692,0.0,-0.251465
326,-1.16161,-0.812615,1.99858,-0.36563,-0.184674,0.77585,-0.758231,0.0,-1.45691
330,-1.04683,1.04551,1.87764,1.96517,0.00100178,-1.2193,-2.059,0.0,-0.499217
334,-1.14344,1.64398,-0.949284,1.00695,-0.667432,-1.54187,1.47087,0.0,-0.274129
338,-1.08892,-0.983607,0.742337,0.0694537,0.16811,0.429386,0.705471,0.0,-1.67195
342,0.328623,-0.983607,0.861764,1.47312,0.539462,-0.930184,-0.503555,0.0,-0.878774
346,-1.0784,0.665903,-0.949284,-0.256859,0.186678,0.521378,0.791732,0.0,-1.20723
350,0.0684533,-0.983607,0.405222,0.810132,0.669435,-0.295798,-0.029803,0.0,-0.306458
354,0.453925,0.846015,-0.949284,-0.282757,0.483759,-0.471419,-0.0667721,0.0,1.06833
358,-1.10422,1.7158,-0.949284,-0.47958,0.910814,1.35289,-1.22651,0.0,0.0464936
362,-1.05831,1.10706,-0.949284,0.530435,0.390921,-0.942131,1.41473,0.0,-0.882105
366,0.452012,0.665903,-0.949284,-2.88808,0.186678,0.521378,0.791732,0.0,0.52914
370,0.11054,0.347856,0.426387,0.390587,0.00100178,-0.114203,-1.35247,0.0,0.464809
374,0.22532,0.540508,-0.949284,0.613308,-0.277512,-0.381816,-0.0585568,0.0,0.646446
378,-1.23431,0.858554,0.952467,-0.593531,0.6323,-0.399737,0.000319916,0.0,-0.522349
382,-0.989441,1.18344,1.28958,-0.220602,2.19198,-1.40926,-0.314602,0.0,-0.203229
386,0.42523,0.644244,0.731755,-0.790354,2.80471,-0.503676,-1.54964,0.0,0.0998446
390,-1.02196,0.713781,0.804318,-0.412246,1.48641,-0.0329634,-0.611724,0.0,-0.617086
394,-1.09561,-0.983607,1.83078,-0.852509,0.855111,0.419829,0.10712,0.0,-1.44133
398,0.961829,1.1481,-0.949284,0.426844,-0.0732686,-1.57413,-0.102372,0.0,1.98454
402,-1.05066,1.79217,-0.949284,-0.142908,0.688003,0.787797,-0.912954,0.0,0.0418482
406,0.20906,0.390034,0.470227,0.2352,0.409489,-0.617173,-0.9376,0.0,0.479777
410,0.545749,0.710361,-0.949284,0.141968,0.279516,-0.0604415,-0.751385,0.0,1.06697
414,-1.20274,0.884773,0.98119,2.77837,-0.221809,-1.04488,-1.4894,0.0,-0.103659
418,-1.01048,1.86627,-0.949284,-0.759277,0.966517,1.11395,-1.04303,0.0,0.184258
422,-1.11857,0.605485,0.69245,0.499358,-0.166107,-0.760537,0.213919,0.0,-0.888252
424,-0.0434577,0.162044,0.234397,0.908543,0.298083,-1.09386,-0.0393876,0.0,-0.295854